Folder: TFFM40-Report/Paper/Labs/XRD_Data

Note: README.txt
Standard git kommandon

***Lägga till filer du skrivit i eller skapat***
!!!gör alltid en ”git pull” först!!!
git add <din_fil>
git commit -m”Skriv_vad_du_pushar”
git push origin master 			//man behöver inte alltid origin master..

***hämta filer från vårt repo***
git pull origin master

***kolla vilka filer du har ändrat***
git status

***slipp skriva ”origin master”***
git branch --set-upstream-to=origin/<branch> master

File: CRSCGR13.dat
 13.990 7
 14.010 8
 14.030 7
 14.050 7
 14.070 7
 14.090 11
 14.110 9
 14.130 6
 14.150 10
 14.170 4
 14.190 10
 14.210 9
 14.230 5
 14.250 14
 14.270 7
 14.290 7
 14.310 7
 14.330 8
 14.350 6
 14.370 9
 14.390 6
 14.410 7
 14.430 6
 14.450 6
 14.470 9
 14.490 3
 14.510 6
 14.530 6
 14.550 12
 14.570 6
 14.590 10
 14.610 9
 14.630 9
 14.650 5
 14.670 8
 14.690 9
 14.710 8
 14.730 7
 14.750 6
 14.770 4
 14.790 7
 14.810 10
 14.830 4
 14.850 12
 14.870 12
 14.890 12
 14.910 15
 14.930 12
 14.950 27
 14.970 17
 14.990 12
 15.010 11
 15.030 6
 15.050 6
 15.070 6
 15.090 7
 15.110 5
 15.130 6
 15.150 4
 15.170 5
 15.190 2
 15.210 6
 15.230 3
 15.250 5
 15.270 3
 15.290 3
 15.310 4
 15.330 5
 15.350 7
 15.370 9
 15.390 5
 15.410 5
 15.430 4
 15.450 4
 15.470 3
 15.490 3
 15.510 2
 15.530 7
 15.550 5
 15.570 4
 15.590 6
 15.610 4
 15.630 5
 15.650 2
 15.670 2
 15.690 5
 15.710 4
 15.730 0